Folder: mixchar-gui

Note: README.md
# mixchar-gui

Shiny GUI for the `mixchar` package (thermogravimetric deconvolution).

## Requirements
- R (>= 4.0)
- `mixchar` package â€” **fixed-carbon branch** (latest carbon-fraction work)  
  ```r
  install.packages("remotes")  # if remotes is not installed
  remotes::install_github("smwindecker/mixchar", ref = "fixed-carbon")
  # or install from your local fixed-carbon checkout:
  # remotes::install_local("/path/to/mixchar")
  ```
- Shiny runtime (installs automatically with `install.packages("shiny")`); the app also uses `DT`.

## Getting the GUI
- Download/clone the GUI repo: <https://github.com/smwindecker/mixchar-gui>
- (Already here) place the example data `beech_example.csv` in the repo root; keep `ui.R` and `server.R` together.

## Run
In the repo root:
```r
shiny::runApp(".")
```

## Notes
- Make sure the `mixchar` fixed-carbon branch is installed before running the GUI.
- You can upload your own CSV in the app and set skip rows/column mapping; or use the bundled `beech_example.csv`.

File: beech_example.csv
#EXPORTTYPE:,DATA ALL,,,,
#FILE:,Program 3 Mixchar2 - Buk.ngb-ss5,,,,
#FORMAT:,NETZSCH5,,,,
#FTYPE:,UNICODE,,,,
#IDENTITY:,Program 3 Mixchar2 - B,,,,
#MTYPE:,TG,,,,
#INSTRUMENT:,NETZSCH STA 449F5,,,,
#PROJECT:,,,,,
#DATE/TIME:,17. 9. 2025 12:22:28 (UTC+2),,,,
#CORR. FILE:,,,,,
#TEMPCAL:,15/11/2022 7:48,,,,
#SENSITIVITY:,6/12/2022 14:50,,,,
#LABORATORY:,MTF STU,,,,
#OPERATOR:,td,,,,
#REMARK:,,,,,
#SAMPLE:,Program 3 Mixchar2 - B,,,,
#SAMPLE MASS /mg:,10.6531,,,,
#MATERIAL:,wood,,,,
#REFERENCE:,Empty Al2O3,,,,
#REFERENCE MASS /mg:,0,,,,
#TYPE OF CRUCIBLE:,"Al2O3 85 µl, open",,,,
#SAMPLE CRUCIBLE MASS /mg:,142.9,,,,
#REFERENCE CRUCIBLE MASS /mg:,147,,,,
#PURGE 1 MFC:,"OXYGEN,252,5 ml/min",,,,
#PURGE 2 MFC:,"NITROGEN,250,0 ml/min",,,,
#PROTECTIVE MFC:,"NITROGEN,250,0 ml/min",,,,
#DSC RANGE /µV:,5000,,,,
#TG RANGE /mg:,35000,,,,
#TAU-R:,---,,,,
#CORR. CODE:,0,,,,
#EXO:,1,,,,
#RANGE:,35°C....815°C/-10.0....10.0K/min,,,,
#SEGMENT:,S1-6/6,,,,
#SEG. 1:,35°C/10.0(K/min)/105°C,,,,
#SEG. 2:,105°C/02:00/105°C,,,,
#SEG. 3:,105°C/10.0(K/min)/750°C,,,,
#SEG. 4:,750°C/10.0(K/min)/600°C,,,,
#SEG. 5:,600°C/3.6(K/min)/815°C,,,,
#SEG. 6:,815°C/02:00/815°C,,,,
,,,,,
temp,time,mass_loss,dtg,sensitivity,stage
32.488,0,0.000000E+0,-6.04E-02,0.98674,1
39.6926,1.75,-7.84E-02,-5.27E-02,0.98086,1
55.164,3.5,-0.20085,-8.37E-02,0.96822,1
74.0772,5.25,-0.35041,-7.82E-02,0.95272,1
94.849,7,-0.43937,-0.11544,0.93569,1
109.136,8.75,-0.45628,-3.38E-03,0.92399,2
111.46,10.5,-0.46035,-3.72E-04,0.92209,2
110.873,12.25,-0.46024,-1.03E-03,0.92257,2
109.508,14,-0.46091,-6.93E-04,0.92369,2
108.147,15.75,-0.46001,-7.14E-04,0.9248,2
107.063,17.5,-0.46159,5.950352E-4,0.92569,2
106.313,19.25,-0.4608,-1.01E-04,0.9263,2
105.791,21,-0.46305,-1.72E-04,0.92673,2
105.469,22.75,-0.46136,-3.35E-04,0.92699,2
105.328,24.5,-0.46069,2.835747E-4,0.92711,2
105.218,26.25,-0.46238,9.959259E-4,0.9272,2
105.128,28,-0.4617,3.156698E-4,0.92727,2
105.059,29.75,-0.46261,7.878942E-4,0.92733,2
105.046,31.5,-0.46498,-4.89E-04,0.92734,2
105.052,33.25,-0.46452,-7.01E-04,0.92733,2
105.037,35,-0.46453,-4.06E-04,0.92735,2
105.013,36.75,-0.46418,1.986469E-4,0.92737,2
104.998,38.5,-0.46689,-1.21E-03,0.92738,2
105.027,40.25,-0.46655,-1.11E-04,0.92736,2
105.009,42,-0.46723,-1.75E-03,0.92737,2
104.993,43.75,-0.4678,6.731718E-4,0.92738,2
105.03,45.5,-0.46948,-1.05E-04,0.92735,2
105.019,47.25,-0.46745,-5.42E-04,0.92736,2
105.032,49,-0.4705,5.041804E-4,0.92735,2
105.028,50.75,-0.46983,-1.49E-03,0.92735,2
105.014,52.5,-0.47083,-9.67E-04,0.92737,2
105.032,54.25,-0.47219,-5.95E-04,0.92735,2
105.014,56,-0.4705,-3.28E-04,0.92737,2
105.009,57.75,-0.47084,7.738834E-4,0.92737,2
104.999,59.5,-0.47388,-1.14E-03,0.92738,2
105.001,61.25,-0.47321,-7.38E-06,0.92738,2
104.977,63,-0.47422,3.205290E-4,0.9274,2
105.013,64.75,-0.47659,-6.49E-04,0.92737,2
105.009,66.5,-0.47365,1.930026E-4,0.92737,2
105.031,68.25,-0.47366,-8.13E-04,0.92735,2
105.034,70,-0.47602,3.901133E-4,0.92735,2
105.006,71.75,-0.47738,-1.93E-04,0.92737,2
105.018,73.5,-0.47737,-5.36E-05,0.92736,2
105.003,75.25,-0.47737,-1.47E-04,0.92738,2
105.035,77,-0.47772,-6.15E-04,0.92735,2
105.014,78.75,-0.47805,4.613574E-4,0.92737,2
105.018,80.5,-0.47975,-9.47E-04,0.92736,2
105.006,82.25,-0.47839,-1.17E-03,0.92737,2
105.008,84,-0.4811,2.840197E-4,0.92737,2
104.995,85.75,-0.48031,-8.65E-04,0.92738,2
104.974,87.5,-0.48166,-3.38E-04,0.9274,2
104.997,89.25,-0.482,-8.83E-04,0.92738,2
104.983,91,-0.48279,3.033924E-4,0.92739,2
104.975,92.75,-0.48313,-7.66E-04,0.9274,2
105.013,94.5,-0.48313,-2.24E-03,0.92737,2
105.012,96.25,-0.48324,-8.60E-05,0.92737,2
105.034,98,-0.48358,-6.87E-04,0.92735,2
105.094,99.75,-0.48426,-2.94E-04,0.9273,2
105.071,101.5,-0.48594,5.725565E-4,0.92732,2
105.054,103.25,-0.48561,-8.58E-04,0.92733,2
105.026,105,-0.48595,-9.71E-04,0.92736,2
104.977,106.75,-0.48651,7.000114E-4,0.9274,2
104.999,108.5,-0.48719,-3.04E-04,0.92738,2
105.01,110.25,-0.48583,-1.38E-03,0.92737,2
105.026,112,-0.49046,7.987267E-5,0.92736,2
105.014,113.75,-0.48618,-2.18E-04,0.92737,2
104.993,115.5,-0.48922,6.852584E-4,0.92738,2
105.024,117.25,-0.48979,-4.08E-04,0.92736,2
105.004,119,-0.49012,1.351658E-3,0.92737,2
104.999,120.75,-0.48978,-6.53E-05,0.92738,2
105.015,122.5,-0.48944,4.523676E-4,0.92737,2
105.014,124.25,-0.49024,-7.90E-05,0.92737,2
105.048,126,-0.49057,-3.51E-04,0.92734,2
105.961,127.75,-0.49035,-1.97E-03,0.92659,3
119.793,129.5,-0.49171,1.459180E-3,0.91528,3
137.185,131.25,-0.4917,-3.29E-03,0.9011,3
157.131,133,-0.49621,-2.37E-03,0.88493,3
176.831,134.75,-0.4997,-3.72E-03,0.86909,3
196.094,136.5,-0.51065,-6.63E-03,0.85374,3
214.873,138.25,-0.54302,-2.33E-02,0.83895,3
233.076,140,-0.60403,-5.29E-02,0.82478,3
250.983,141.75,-0.73372,-0.10101,0.81103,3
268.688,143.5,-1.01024,-0.24276,0.79763,3
286.265,145.25,-1.63118,-0.44537,0.78454,3
303.746,147,-2.48625,-0.51248,0.77175,3
321.225,148.75,-3.42194,-0.56196,0.75919,3
338.682,150.5,-4.49399,-0.69526,0.74689,3
356.095,152.25,-5.98771,-1.03162,0.73488,3
373.673,154,-7.68024,-0.57475,0.72301,3
390.815,155.75,-8.03198,-7.59E-02,0.71171,3
408.209,157.5,-8.14859,-6.06E-02,0.70051,3
425.641,159.25,-8.24931,-5.12E-02,0.68956,3
443.039,161,-8.32903,-4.25E-02,0.67892,3
460.458,162.75,-8.39287,-3.43E-02,0.66855,3
477.921,164.5,-8.45377,-3.60E-02,0.65845,3
495.38,166.25,-8.50812,-3.25E-02,0.64864,3
512.823,168,-8.56473,-3.00E-02,0.63913,3
530.288,169.75,-8.61977,-2.81E-02,0.62989,3
547.752,171.5,-8.66984,-2.69E-02,0.62094,3
565.204,173.25,-8.71789,-2.79E-02,0.61228,3
582.688,175,-8.76671,-2.49E-02,0.60388,3
600.167,176.75,-8.81104,-2.39E-02,0.59575,3
617.656,178.5,-8.85434,-2.34E-02,0.58789,3
635.171,180.25,-8.89122,-2.10E-02,0.58028,3
652.668,182,-8.92855,-1.67E-02,0.57293,3
670.169,183.75,-8.9581,-1.51E-02,0.56583,3
687.677,185.5,-8.99317,-1.93E-02,0.55895,3
705.189,187.25,-9.01775,-1.72E-02,0.55231,3
722.708,189,-9.04268,-1.44E-02,0.54587,3
740.21,190.75,-9.06851,-1.34E-02,0.53965,3
740.066,192.5,-9.09252,-1.21E-02,0.5397,4
724.736,194.25,-9.10967,-9.28E-03,0.54514,4
707.899,196,-9.1303,-1.02E-02,0.5513,4
690.58,197.75,-9.1426,-1.02E-02,0.55784,4
673.114,199.5,-9.15895,-8.18E-03,0.56465,4
655.621,201.25,-9.1735,-8.66E-03,0.57172,4
638.116,203,-9.1877,-5.77E-03,0.57903,4
620.618,204.75,-9.20091,-8.44E-03,0.58659,4
603.116,206.5,-9.21614,-1.72E-02,0.59441,5
608.184,208.25,-10.43665,-0.43957,0.59212,5
610.741,210,-10.43895,-1.93E-03,0.59097,5
616.92,211.75,-10.4408,-7.91E-04,0.58822,5
623.4775,213.5,-10.44029,8.124484E-4,0.58533,5
630.009,215.25,-10.43998,-2.66E-04,0.5825,5
636.4531,217,-10.44403,-5.67E-04,0.57973,5
642.909,218.75,-10.44527,-8.04E-04,0.577,5
649.308,220.5,-10.44562,-5.49E-04,0.57432,5
655.678,222.25,-10.44489,-5.18E-04,0.57169,5
662.042,224,-10.44618,1.789506E-5,0.5691,5
668.3788,225.75,-10.44718,-9.25E-04,0.56654,5
674.704,227.5,-10.45136,8.429065E-5,0.56402,5
681.015,229.25,-10.44922,4.337396E-4,0.56154,5
687.326,231,-10.44977,-1.65E-04,0.55909,5
693.631,232.75,-10.45147,-1.50E-04,0.55667,5
699.952,234.5,-10.45248,-7.94E-04,0.55427,5
706.26,236.25,-10.45248,-1.95E-03,0.55191,5
712.557,238,-10.4535,-6.51E-04,0.54957,5
718.88,239.75,-10.45271,-1.16E-03,0.54726,5
725.182,241.5,-10.45216,2.266329E-4,0.54498,5
731.473,243.25,-10.45482,-9.31E-04,0.54273,5
737.781,245,-10.45754,-1.37E-03,0.54051,5
744.093,246.75,-10.45418,-4.26E-04,0.5383,5
750.402,248.5,-10.45485,-8.13E-04,0.53612,5
756.683,250.25,-10.45722,-2.53E-04,0.53398,5
763.009,252,-10.45948,-1.78E-05,0.53184,5
769.311,253.75,-10.45936,2.086706E-4,0.52974,5
775.61,255.5,-10.45806,6.432344E-5,0.52766,5
781.9161,257.25,-10.45817,-1.04E-03,0.5256,5
788.223,259,-10.45925,-1.75E-04,0.52356,5
794.528,260.75,-10.46021,5.020478E-4,0.52155,5
800.827,262.5,-10.45825,-7.04E-04,0.51956,5
807.148,264.25,-10.45891,-2.58E-04,0.51758,5
813.445,266,-10.4596,1.250794E-3,0.51562,5
814.774,267.75,-10.4579,-2.18E-04,0.51521,6
815.004,269.5,-10.4596,-1.08E-03,0.51514,6
815.069,271.25,-10.46027,-9.76E-04,0.51512,6
815.075,273,-10.45993,4.379373E-4,0.51512,6
815.071,274.75,-10.46095,1.332911E-4,0.51512,6
815.064,276.5,-10.46027,-6.74E-04,0.51512,6
815.049,278.25,-10.46027,-2.45E-04,0.51513,6
815.042,280,-10.4623,-1.18E-04,0.51513,6
815.038,281.75,-10.46196,-3.71E-04,0.51513,6
815.039,283.5,-10.46297,-7.48E-04,0.51513,6
815.048,285.25,-10.46297,-7.84E-04,0.51513,6
815.03,287,-10.46196,-1.33E-04,0.51513,6
815.036,288.75,-10.4623,-8.08E-04,0.51513,6
815.031,290.5,-10.46365,-5.05E-04,0.51513,6
815.031,292.25,-10.46433,-5.67E-04,0.51513,6
815.025,294,-10.46399,-1.47E-03,0.51514,6
815.042,295.75,-10.46196,-6.25E-04,0.51513,6
815.048,297.5,-10.46196,8.235308E-4,0.51513,6
815.024,299.25,-10.46297,7.859762E-4,0.51514,6
815.032,301,-10.46432,-2.88E-04,0.51513,6
815.026,302.75,-10.46433,1.078762E-3,0.51514,6
815.037,304.5,-10.46467,8.697531E-5,0.51513,6
815.042,306.25,-10.46399,5.625225E-4,0.51513,6
815.025,308,-10.46365,3.884319E-4,0.51514,6
815.031,309.75,-10.4623,-1.10E-04,0.51513,6
815.043,311.5,-10.46432,-5.84E-05,0.51513,6
815.035,313.25,-10.46466,8.727887E-4,0.51513,6
815.02,315,-10.46568,6.903778E-4,0.51514,6
815.046,316.75,-10.465,-5.14E-05,0.51513,6
815.036,318.5,-10.46636,1.872260E-5,0.51513,6
815.035,320.25,-10.46568,-9.49E-04,0.51513,6
815.032,322,-10.46704,-3.62E-04,0.51513,6
815.034,323.75,-10.46782,6.846729E-6,0.51513,6
815.041,325.5,-10.46782,-3.99E-05,0.51513,6
815.036,327.25,-10.46782,1.118206E-3,0.51513,6
815.042,329,-10.46816,-1.64E-04,0.51513,6
815.026,330.75,-10.46749,-6.87E-04,0.51514,6
815.037,332.5,-10.46816,-4.85E-05,0.51513,6
815.03,334.25,-10.46918,-2.94E-04,0.51513,6
815.034,336,-10.46985,-2.53E-04,0.51513,6
815.038,337.75,-10.46816,3.867820E-4,0.51513,6
815.027,339.5,-10.46884,-5.29E-05,0.51514,6
815.036,341.25,-10.46884,4.285724E-5,0.51513,6
815.03,343,-10.46884,1.783087E-4,0.51513,6
815.039,344.75,-10.47019,4.263629E-4,0.51513,6
815.028,346.5,-10.4685,5.016149E-4,0.51514,6
815.03,348.25,-10.46816,6.704626E-5,0.51513,6
815.034,350,-10.4685,3.093594E-4,0.51513,6
815.029,351.75,-10.46681,9.305915E-4,0.51514,6
815.041,353.5,-10.46714,-7.10E-04,0.51513,6
815.033,355.25,-10.4685,4.873226E-4,0.51513,6
815.025,357,-10.46771,-5.61E-04,0.51514,6
815.039,358.75,-10.46907,-2.74E-04,0.51513,6
815.036,360.5,-10.46906,6.605656E-4,0.51513,6
815.044,362.25,-10.46906,1.343941E-3,0.51513,6
815.041,364,-10.46771,9.518301E-4,0.51513,6
815.037,365.75,-10.46771,1.068709E-3,0.51513,6
815.03,367.5,-10.46907,2.404655E-4,0.51513,6
815.038,369.25,-10.47143,-5.01E-04,0.51513,6
815.031,371,-10.4694,-4.24E-04,0.51513,6
815.031,372.75,-10.46771,1.446738E-3,0.51513,6
815.044,374.5,-10.46907,1.202211E-3,0.51513,6
815.031,376.25,-10.47177,1.962068E-4,0.51513,6
815.027,378,-10.47007,-3.47E-04,0.51514,6
815.035,379.75,-10.4721,-2.94E-04,0.51513,6
815.031,381.5,-10.4721,-1.77E-04,0.51513,6
815.03,383.25,-10.47165,6.940756E-5,0.51513,6
815.04,385,-10.47165,5.326112E-4,0.51513,6
815.04,385.75,-10.47199,1.299215E-3,0.51513,6